Record Length: 1024
BoardID: 31
Channel: 12
Event Number: 179
Pattern: 0x0000
Trigger Time Stamp: 665884374
DC offset (DAC): 0x7FFF
Start Index Cell: 713
2657.000000
2657.000000
2656.033936
2654.082520
2657.820068
2658.951660
2659.000000
2659.932129
2660.917480
2659.183594
2656.261475
2658.786865
2658.050049
2657.034180
2660.946045
2659.978760
2655.968018
2654.043701
2656.033691
2656.903076
2655.000000
2655.081543
2656.270752
2658.812988
2657.278320
2659.716797
2657.207031
2659.233643
2660.868408
2659.853271
2659.000000
2658.821533
2658.000000
2658.369141
2659.639893
2657.641357
2656.374512
2657.804199
2657.599609
2659.206299
2656.565430
2658.646973
2657.169922
2657.489502
2655.181396
2656.198486
2657.434570
2659.000000
2658.488770
2657.000000
2657.813232
2659.157227
2657.303711
2657.668945
2657.358154
2657.250244
2657.524658
2658.461426
2658.341309
2660.395996
2656.749756
2656.732422
2658.549316
2658.000000
2656.570313
2656.457764
2658.497559
2658.490967
2656.966797
2657.039795
2658.000000
2658.000000
2657.029053
2658.321777
2660.546631
2659.543701
2659.000000
2658.054443
2657.483887
2660.495850
2659.898438
2659.125000
2658.844971
2659.168945
2659.374756
2658.534180
2657.956543
2659.053955
2659.459717
2657.484863
2656.484863
2656.000000
2657.576172
2657.950684
2656.492676
2656.963135
2657.078369
2656.446045
2656.567139
2656.422363
2657.836182
2657.319824
2657.116455
2659.151611
2657.153809
2657.260986
2659.413086
2658.800049
2657.767578
2658.628906
2658.000000
2658.000000
2656.636719
2655.028809
2656.288086
2656.111084
2656.493408
2655.122559
2656.637207
2656.000000
2656.000000
2656.000000
2656.787598
2658.507568
2657.000000
2657.000000
2657.415527
2658.800293
2658.000000
2657.801025
2657.411377
2659.000000
2658.776123
2658.446045
2659.359131
2656.589355
2655.200195
2656.591553
2658.040283
2654.563965
2656.818604
2656.000000
2656.000000
2656.318848
2657.688721
2656.313721
2658.162354
2659.000000
2658.304932
2655.693359
2658.665771
2656.839111
2656.472412
2659.000000
2658.835205
2658.498779
2660.339111
2656.835205
2656.500244
2658.831299
2657.668945
2656.000000
2656.128906
2657.000000
2656.913330
2656.076416
2657.000000
2657.000000
2657.043701
2658.039795
2658.920410
2656.958008
2655.956787
2655.133789
2658.000000
2657.892090
2656.178711
2659.000000
2658.879883
2657.133057
2659.000000
2658.749268
2657.000000
2657.444092
2658.230713
2656.551758
2658.287109
2658.126221
2656.291504
2657.286133
2657.449219
2656.000000
2656.243408
2657.226563
2657.576416
2656.202393
2657.199951
2657.591064
2656.418213
2657.791260
2657.411621
2659.000000
2658.256592
2655.522705
2657.830078
2657.000000
2657.364746
2658.616455
2657.000000
2657.217041
2657.276367
2655.528564
2656.713867
2656.608398
2657.677734
2657.000000
2656.645264
2656.368652
2655.837891
2654.814697
2656.000000
2656.436035
2657.450195
2658.464844
2658.040771
2657.000000
2656.481201
2657.631836
2658.437500
2658.570801
2659.000000
2657.855225
2657.000000
2657.575684
2658.572754
2659.000000
2659.000000
2659.577148
2657.653076
2657.193359
2658.000000
2656.174072
2655.000000
2656.855713
2657.379395
2657.619629
2658.000000
2658.000000
2657.383789
2658.263428
2657.695068
2657.676758
2657.298096
2657.735107
2656.449219
2656.000000
2656.833740
2657.844971
2656.291260
2658.601318
2658.118164
2658.898682
2658.092041
2657.087646
2657.000000
2657.918945
2656.149902
2656.000000
2656.920654
2658.824463
2653.558594
2653.902588
2656.687988
2655.226563
2657.617676
2658.000000
2656.254883
2655.113525
2658.587891
2659.898682
2658.205322
2657.097412
2657.910889
2658.000000
2659.844482
2657.216797
2657.927002
2657.076660
2657.000000
2657.000000
2656.051514
2656.946777
2657.000000
2656.064697
2657.845947
2655.301025
2652.400146
2652.831299
2655.403564
2658.333740
2657.485352
2657.736084
2659.435791
2659.292969
2659.701660
2657.887207
2657.713379
2658.720215
2659.000000
2660.430664
2660.281982
2660.000000
2658.538574
2658.737549
2659.000000
2658.241455
2659.541016
2660.783447
2658.635254
2656.430420
2658.347412
2658.214111
2658.790283
2655.046631
2656.365479
2659.335449
2658.479980
2658.741455
2657.555420
2659.095947
2657.992920
2657.639893
2658.612305
2659.588623
2660.000000
2660.000000
2660.558838
2661.000000
2659.288330
2658.000000
2657.391602
2658.237061
2657.753906
2657.000000
2658.265625
2657.078857
2657.302002
2658.000000
2658.664307
2659.661377
2659.346191
2657.702637
2658.300049
2660.959961
2659.369873
2659.320313
2659.339355
2659.000000
2658.364014
2659.222900
2660.590576
2658.132813
2656.555664
2658.069580
2657.981934
2656.522705
2657.336426
2659.424316
2659.160645
2658.426270
2658.566406
2657.565674
2657.000000
2657.424561
2658.000000
2658.000000
2659.190674
2659.836914
2658.000000
2658.000000
2658.705566
2659.668213
2658.054932
2656.921631
2658.689697
2658.000000
2658.664307
2659.666748
2658.672852
2658.649902
2659.349121
2658.648193
2659.359863
2658.620850
2659.405518
2658.000000
2658.270020
2658.749756
2658.000000
2658.224854
2658.544434
2657.230469
2658.000000
2658.000000
2658.000000
2658.187256
2659.182617
2659.632324
2658.000000
2657.649658
2656.820313
2661.000000
2661.000000
2660.444580
2657.130615
2658.000000
2658.114014
2659.000000
2658.893311
2658.096680
2659.000000
2659.083008
2659.825928
2658.177734
2659.920654
2658.940186
2658.031982
2658.997070
2659.000000
2659.923340
2659.106689
2659.000000
2656.546387
2656.000000
2657.527344
2658.746582
2659.000000
2658.291260
2660.773926
2659.304199
2656.034668
2656.909912
2658.000000
2658.606934
2657.791016
2658.816650
2658.785156
2659.226074
2659.384521
2658.392334
2659.203613
2659.395752
2658.392334
2658.604004
2660.183350
2659.842529
2658.431641
2658.000000
2658.000000
2658.546387
2659.000000
2659.515137
2657.995850
2658.395752
2660.546875
2658.286621
2656.000000
2657.137207
2658.637451
2658.000000
2658.352295
2658.305664
2657.000000
2657.688477
2659.343018
2659.327881
2658.329590
2658.348877
2657.641113
2658.684570
2658.305908
2659.292969
2658.855957
2656.285645
2657.000000
2657.286133
2658.000000
2658.000000
2658.000000
2657.693848
2657.000000
2657.896240
2658.813721
2656.298340
2657.610840
2658.367676
2658.293213
2659.680176
2657.338379
2658.000000
2657.269287
2656.752441
2657.625000
2657.734863
2659.000000
2658.299316
2657.674561
2659.315918
2660.295898
2660.443848
2658.479492
2657.243164
2658.677002
2660.592529
2658.822754
2658.151367
2658.873047
2657.891846
2657.181396
2658.856934
2657.109375
2658.900146
2657.050293
2658.158447
2660.818848
2657.922607
2657.106689
2658.138916
2659.170898
2659.798096
2658.094727
2655.487305
2656.741455
2656.547852
2657.713135
2657.588623
2658.117920
2657.133545
2659.458008
2658.000000
2657.221680
2656.299561
2659.734863
2659.000000
2659.550537
2659.914063
2657.000000
2657.249512
2658.476074
2660.689453
2661.649170
2657.000000
2657.429688
2659.000000
2659.194092
2660.000000
2660.197510
2660.582764
2658.569336
2657.218506
2658.221191
2659.000000
2658.783936
2658.000000
2658.000000
2658.199219
2658.618164
2657.362549
2658.483887
2656.162354
2657.624512
2660.523926
2657.659424
2656.369629
2658.391602
2659.405029
2657.000000
2657.985107
2661.386719
2659.000000
2659.216797
2659.779541
2658.550049
2657.227539
2658.917725
2661.301025
2658.524658
2658.205078
2660.774658
2656.752197
2656.491455
2658.000000
2657.547363
2656.903564
2659.290527
2657.254395
2657.729736
2657.284424
2658.298584
2658.689453
2657.681152
2657.964355
2659.366943
2658.615479
2660.000000
2659.720459
2659.000000
2659.501221
2660.542969
2659.208008
2659.416016
2657.187988
2657.815186
2657.348877
2659.000000
2658.850830
2658.000000
2658.115723
2658.612793
2655.234131
2657.939697
2657.050049
2658.046875
2658.849121
2656.105957
2658.053223
2658.827881
2656.241699
2659.000000
2658.845703
2658.187988
2658.790283
2658.443604
2659.090576
2656.681152
2658.324463
2656.226074
2658.131104
2661.103271
2658.225098
2657.628906
2653.687744
2655.767578
2656.213135
2659.735596
2658.117432
2656.950684
2658.348389
2657.322998
2658.314941
2658.072266
2656.929199
2658.371094
2657.962646
2659.675781
2658.675781
2659.303223
2660.683838
2657.341797
2656.656250
2659.322510
2660.993408
2658.661133
2658.000000
2658.969727
2659.762939
2657.901367
2659.403564
2658.000000
2658.886963
2660.134521
2658.000000
2657.723633
2657.267822
2657.479980
2656.000000
2656.508545
2657.475342
2656.556396
2658.290527
2658.704834
2657.704590
2657.000000
2658.177246
2660.409180
2659.000000
2658.720947
2657.737793
2657.244385
2657.770020
2657.000000
2657.603760
2659.805420
2659.000000
2659.216064
2660.000000
2659.760742
2659.000000
2659.000000
2659.000000
2659.000000
2659.230469
2660.000000
2659.303467
2657.465088
2659.230957
2659.073975
2656.000000
2656.729736
2659.000000
2659.000000
2658.460449
2657.796875
2659.503906
2658.461914
2660.000000
2659.381348
2656.802246
2656.782227
2660.198730
2660.192871
2657.805908
2660.801270
2659.805176
2659.000000
2659.414795
2659.706299
2655.662109
2657.772461
2656.763916
2656.732178
2659.255127
2659.721436
2658.077637
2657.323242
2660.000000
2658.562500
2657.094238
2659.360107
2660.000000
2660.000000
2659.685547
2659.605469
2660.124023
2658.835449
2660.735107
2659.224365
2658.037109
2660.209473
2658.000000
2658.000000
2658.488525
2659.782471
2659.186035
2660.000000
2660.130615
2660.670410
2658.000000
2658.000000
2657.915771
2657.256348
2659.746582
2657.077393
2658.000000
2658.131836
2660.056152
2660.923584
2659.000000
2659.000000
2659.000000
2658.035889
2659.939697
2657.056885
2657.991211
2661.980957
2657.046143
2658.962646
2657.058350
2657.000000
2657.940918
2656.157715
2661.435303
2661.104736
2661.883789
2662.000000
2659.434326
2659.846436
2658.315186
2656.332275
2656.816650
2657.000000
2658.539551
2658.253418
2658.722656
2659.000000
2658.299316
2660.800293
2660.598633
2661.416992
2659.830566
2660.473389
2661.745605
2658.997314
2659.508545
2656.963135
2656.762207
2658.515381
2657.507813
2659.939941
2656.630371
2654.274902
2655.465332
2656.000000
2658.338623
2658.206055
2657.195557
2660.274658
2659.331299
2657.308594
2657.849609
2656.296387
2658.564697
2660.709229
2656.728516
2656.854492
2658.712646
2655.566650
2658.420654
2656.451416
2656.840576
2657.826172
2658.805176
2659.000000
2660.529541
2658.746826
2659.467041
2658.583740
2658.681396
2659.657471
2658.722656
2658.623535
2659.000000
2658.413574
2657.432617
2657.000000
2657.000000
2657.553467
2657.436279
2657.574219
2658.586182
2657.204102
2657.812988
2659.000000
2658.382813
2658.626465
2657.728271
2658.290283
2658.347656
2655.381348
2657.291504
2659.000000
2657.621582
2658.416504
2657.555664
2657.728760
2657.270752
2658.455322
2658.269287
2657.262451
2655.516846
2655.745850
2656.755371
2655.486572
2655.754639
2657.519043
2657.225586
2656.201172
2656.000000
2659.424561
2657.376953
2657.000000
2656.108643
2656.900146
2655.167969
2657.792725
2658.000000
2658.000000
2657.038818
2658.940674
2657.036865
2656.009033
2659.000000
2659.013184
2659.965820
2658.007324
2658.982666
2661.855713
2659.247314
2656.337158
2657.730957
2658.854004
2658.146240
2658.858887
2654.675293
2655.749268
2657.765625
2656.237793
2658.606934
2656.432129
2656.000000
2659.297119
2658.390137
2658.787598
2657.449951
2657.767334
2659.534180
2658.450928
2658.000000
2659.614014
2660.000000
2657.538818
2657.812988
2660.414795
2659.406494
2659.789795
2660.000000
2659.183594
2659.000000
2659.856689
2656.523926
2656.881836
2657.000000
2659.737061
2657.208740
2657.945557
2658.000000
2657.020752
2657.988037
2658.000000
2656.010010
2658.995850
2657.006104
2657.982422
2656.044434
2659.015381
2659.977295
2657.015137
2657.000000
2657.000000
2657.978760
2656.049072
2658.038086
2658.949219
2658.000000
2658.168701
2659.810791
2658.196045
2659.681152
2657.000000
2657.153076
2657.648682
2656.389893
2657.575684
2656.684814
2658.516113
2657.000000
2657.797607
2659.169434
2656.715820
2656.870361
2659.000000
2659.000000
2658.667480
2657.651855
2657.372803
2658.824463
2659.103271
2658.000000
2657.516113
2656.505371
2657.519531
2659.000000
2659.000000
2658.448242
2658.581055
2658.389160
2659.275635
2658.670166
2657.305664
2658.445801
2657.491699
2656.215576
2657.626221
2656.330811
2658.528564
2657.308105
2658.708008
2656.409424
2656.000000
2656.879395
2658.784912
2658.091309
2655.216797
2655.943359
2656.958496
2657.000000
2657.000000
2657.079102
2659.752686
2654.048584
2655.252197
2659.739746
2655.214844
2658.945068
2658.115479
2660.161621
2662.959229
2661.850098
2658.122070
2660.960693
2660.000000
2660.102051
2662.899170
2658.941162
